Folder: ChargeGPT/data

Note: README.md
<div align="center">

# âš¡ ChargeGPT

### Autonomous Battery Health Optimization using Physics-Informed Natural Law Models

[![Python](https://img.shields.io/badge/Python-3.10+-3776AB?style=for-the-badge&logo=python&logoColor=white)](https://python.org)
[![PyTorch](https://img.shields.io/badge/PyTorch-2.0+-EE4C2C?style=for-the-badge&logo=pytorch&logoColor=white)](https://pytorch.org)
[![LangChain](https://img.shields.io/badge/LangChain-0.1+-1C3C3C?style=for-the-badge&logo=langchain&logoColor=white)](https://langchain.com)
[![Streamlit](https://img.shields.io/badge/Streamlit-1.30+-FF4B4B?style=for-the-badge&logo=streamlit&logoColor=white)](https://streamlit.io)

*A Physics-Informed Transformer that understands electrochemical degradation laws, wrapped with an autonomous AI agent that acts as your EV battery's guardian.*

</div>

---

## ğŸ§  What is ChargeGPT?

**ChargeGPT** is an advanced **Natural Law Model (NLM)** designed to extend the lifespan of Electric Vehicle (EV) batteries. Unlike traditional Battery Management Systems (BMS) that rely on simple rule-based logic, ChargeGPT utilizes a **Physics-Informed Transformer** to understand the underlying electrochemical laws of lithium-ion degradation.

By integrating this NLM with an **autonomous AI agent**, the system acts as a proactive **"Battery Guardian,"** negotiating optimal charging schedules that balance user needs with microscopic preservation of the battery's anode and cathode.

### ğŸ”‘ Key Innovation

> **Traditional BMS**: *"Battery is at 80%. Slow down charging."* (Rule-based)
>
> **ChargeGPT**: *"Based on electrochemical analysis, your current 2C fast-charging pattern will degrade the SEI layer by 18% over 500 cycles. Switching to 1C overnight charging would preserve 94% SOH â€” extending battery life by ~3 years."* (Physics-informed reasoning)

---

## ğŸ—ï¸ Architecture

```
â”Œâ”€â”€â”€â”€â”€â”€â”€â”€â”€â”€â”€â”€â”€â”€â”€â”€â”€â”€â”€â”€â”€â”€â”€â”€â”€â”€â”€â”€â”€â”€â”€â”€â”€â”€â”€â”€â”€â”€â”€â”€â”€â”€â”€â”€â”€â”€â”€â”€â”€â”€â”€â”€â”€â”€â”€â”€â”€â”€â”€â”€â”€â”
â”‚                      ChargeGPT System                       â”‚
â”‚                                                             â”‚
â”‚  â”Œâ”€â”€â”€â”€â”€â”€â”€â”€â”€â”€â”€â”€â”€â”€â”€â”€â”   â”Œâ”€â”€â”€â”€â”€â”€â”€â”€â”€â”€â”€â”€â”€â”€â”€â”€â”€â”€â”   â”Œâ”€â”€â”€â”€â”€â”€â”€â”€â”€â”€â”€â”  â”‚
â”‚  â”‚ Physics-Based  â”‚â”€â”€â–¶â”‚   Transformer    â”‚â—€â”€â”€â”‚ LangChain â”‚  â”‚
â”‚  â”‚ Data Generator â”‚   â”‚   (NLM Brain)    â”‚   â”‚   Agent   â”‚  â”‚
â”‚  â”‚                â”‚   â”‚                  â”‚   â”‚           â”‚  â”‚
â”‚  â”‚ â€¢ Power-law    â”‚   â”‚ â€¢ 2-layer encoderâ”‚   â”‚ â€¢ Gemini  â”‚  â”‚
â”‚  â”‚   capacity fadeâ”‚   â”‚ â€¢ 4 attn heads   â”‚   â”‚   LLM     â”‚  â”‚
â”‚  â”‚ â€¢ Arrhenius    â”‚   â”‚ â€¢ 76K params     â”‚   â”‚ â€¢ Predict â”‚  â”‚
â”‚  â”‚   temp effects â”‚   â”‚ â€¢ RÂ² = 0.997     â”‚   â”‚   tool    â”‚  â”‚
â”‚  â”‚ â€¢ SEI growth   â”‚   â”‚         

File: battery_data.csv
cycle_number,c_rate,voltage_mean,voltage_std,current_mean,temperature_mean,discharge_capacity,soh
1,0.5,3.8795,0.1683,2.4705,25.94,4.9856,0.997582
14,0.5,3.8642,0.165,2.6208,25.03,4.9407,0.989185
27,0.5,3.8525,0.1673,2.3693,26.27,4.9415,0.986719
40,0.5,3.8417,0.1658,2.3931,26.36,4.9271,0.983708
53,0.5,3.8717,0.1662,2.5172,26.46,4.8949,0.979604
66,0.5,3.8421,0.1765,2.5565,26.32,4.8724,0.97542
79,0.5,3.8511,0.1564,2.2824,25.8,4.8815,0.97356
92,0.5,3.8568,0.1652,2.4402,26.0,4.8615,0.972617
105,0.5,3.8425,0.1679,2.4349,25.85,4.8696,0.971723
118,0.5,3.8335,0.1727,2.291,25.42,4.8557,0.967631
131,0.5,3.8523,0.173,2.473,25.47,4.8449,0.966814
144,0.5,3.8486,0.1631,2.5659,26.47,4.8403,0.964468
157,0.5,3.8474,0.1684,2.2781,26.52,4.821,0.962454
170,0.5,3.8395,0.1685,2.3773,26.27,4.8229,0.963729
183,0.5,3.8514,0.1712,2.4111,26.21,4.7865,0.961294
196,0.5,3.844,0.1717,2.3245,26.34,4.7969,0.959949
209,0.5,3.8448,0.1767,2.1959,25.44,4.7942,0.958092
222,0.5,3.8274,0.1763,2.5421,26.16,4.7903,0.955628
235,0.5,3.8258,0.1806,2.3585,25.86,4.779,0.95631
248,0.5,3.8419,0.1779,2.2477,26.05,4.7615,0.955821
261,0.5,3.8131,0.1786,2.4559,25.89,4.7616,0.952885
274,0.5,3.8383,0.1809,2.3766,25.75,4.7736,0.95381
287,0.5,3.8429,0.1725,2.4287,26.39,4.7521,0.950949
300,0.5,3.8316,0.1711,2.4819,25.93,4.7488,0.949724
313,0.5,3.8466,0.1825,2.3141,26.71,4.7385,0.94812
326,0.5,3.8224,0.1731,2.3044,26.96,4.7417,0.945595
339,0.5,3.8403,0.1712,2.414,26.1,4.7377,0.946539
352,0.5,3.8272,0.1797,2.3066,26.68,4.7204,0.944409
365,0.5,3.8144,0.176,2.3123,27.14,4.7164,0.942097
378,0.5,3.8375,0.1826,2.1835,25.85,4.726,0.944561
391,0.5,3.8344,0.1745,2.1423,26.61,4.7263,0.943058
404,0.5,3.8389,0.1833,2.3316,25.75,4.7086,0.9418
417,0.5,3.8351,0.1796,2.4075,26.28,4.7107,0.940195
430,0.5,3.8434,0.1823,2.3835,25.88,4.7285,0.942174
443,0.5,3.8197,0.1825,2.2387,26.96,4.7047,0.939157
456,0.5,3.8318,0.1739,2.5462,27.3,4.6896,0.938983
469,0.5,3.8241,0.1755,2.5184,26.2,4.6857,0.937787
482,0.5,3.8195,0.1813,2.3528,27.18,4.6561,0.935476
495,0.5,3.8276,0.1762,2.1589,26.37,4.6845,0.936368
8,1.0,3.8366,0.1675,4.9873,28.63,4.868,0.974281
21,1.0,3.8219,0.1806,4.78,28.24,4.8014,0.958797
34,1.0,3.8101,0.1878,4.7613,28.79,4.7519,0.947816
47,1.0,3.803,0.1907,4.6151,28.66,4.7016,0.940253
60,1.0,3.7952,0.1802,4.6987,28.54,4.6431,0.930578
73,1.0,3.8124,0.1971,4.6804,28.6,4.6103,0.924603
86,1.0,3.8022,0.1856,4.6376,28.23,4.5988,0.918818
99,1.0,3.7909,0.1992,4.7945,28.5,4.5493,0.912828
112,1.0,3.7739,0.1997,4.6364,29.02,4.5422,0.906694
125,1.0,3.748,0.201,4.6412,28.66,4.4836,0.89966
138,1.0,3.7598,0.2072,4.3602,28.87,4.4827,0.895572
151,1.0,3.7789,0.1982,4.6128,28.74,4.4481,0.890255
164,1.0,3.773,0.2122,4.7491,28.3,4.4226,0.886776
177,1.0,3.7662,0.2038,4.4912,29.08,4.419,0.883246
190,1.0,3.7514,0.2085,4.4762,28.69,4.3871,0.877408
203,1.0,3.7498,0.2105,4.5566,27.98,4.3662,0.874196
216,1.0,3.7311,0.208,4.4702,28.72,4.3343,0.869916
229,1.0,3.7245,0.2078,4.2151,29.07,4.3257,0.864863
242,1.0,3.7435,0.2192,4.255,29.03,4.2995,0.860893
255,1.0,3.7236,0.216,4.2911,29.58,4.2909,0.859287
268,1.0,3.724,0.2119,4.2463,29.69,4.2857,0.85617
281,1.0,3.7454,0.2113,4.1504,28.77,4.2607,0.850817
294,1.0,3.7149,0.2193,4.3021,29.45,4.2387,0.846977
307,1.0,3.7386,0.2136,4.1386,28.73,4.22,0.843842
320,1.0,3.7324,0.2162,4.334,29.25,4.2118,0.839776
333,1.0,3.7136,0.2184,4.2598,29.45,4.2198,0.837737
346,1.0,3.7229,0.2122,4.1878,29.08,4.1687,0.833538
359,1.0,3.7387,0.216,4.2137,29.38,4.1566,0.832387
372,1.0,3.7186,0.2263,4.3217,29.45,4.146,0.82819
385,1.0,3.709,0.2181,4.0511,29.81,4.1172,0.825393
398,1.0,3.7159,0.2236,4.2442,30.14,4.094,0.821822
411,1.0,3.7168,0.2203,3.9024,29.65,4.0989,0.819823
424,1.0,3.7195,0.2336,4.2014,29.82,4.077,0.8158
437,1.0,3.7052,0.225,4.0384,29.21,4.0526,0.81408
450,1.0,3.6966,0.2223,4.0556,29.66,4.0722,0.813217
463,1.0,3.7007,0.2206,4.0927,29.01,4.0439,0.8095
476,1.0,3.7012,0.2232,3.8937,29.22,4.0139,0.80638
489,1.0,3.6841,0.2246,4.0337,29.68,4.0003,0.804689
2,1.5,3.8155,0.1837,7.2979,31.47,4.8736,0.973835
15,1.5,3.7652,0.1935,6.9949,32.14,4.6452,0.929129
28,1.5,3.7624,0.2063,6.879,31.58,4.5087,0.902051
41,1.5,3.7445,0.2198,6.5603,31.91,4.4188,0.882772
54,1.5,3.7307,0.22,6.4612,32.37,4.3464,0.86667
67,1.5,3.7142,0.2177,6.412,31.82,4.2445,0.850537
80,1.5,3.7031,0.225,6.236,32.81,4.1766,0.834721
93,1.5,3.6815,0.2257,6.1704,32.17,4.132,0.824168
106,1.5,3.6693,0.2331,6.0011,32.81,4.0475,0.810288
119,1.5,3.6774,0.2465,6.1593,32.47,4.0134,0.802115
132,1.5,3.6468,0.2461,5.9238,32.09,3.9506,0.791022
145,1.5,3.6599,0.242,5.7969,33.21,3.8865,0.779939
158,1.5,3.6243,0.2539,5.6031,33.22,3.867,0.771598
171,1.5,3.6299,0.2512,5.8369,31.96,3.8194,0.763083
184,1.5,3.6238,0.254,5.6446,32.11,3.7532,0.75124
197,1.5,3.6166,0.253,5.6167,32.37,3.7199,0.744697
210,1.5,3.6129,0.2625,5.4608,33.8,3.704,0.735902
223,1.5,3.611,0.2627,5.4674,33.63,3.63,0.729478
236,1.5,3.599,0.2659,5.6313,33.02,3.584,0.720319
249,1.5,3.5919,0.2626,5.2789,33.41,3.5595,0.711889
262,1.5,3.5998,0.2659,5.1703,32.44,3.5195,0.703849
275,1.5,3.5646,0.2809,5.1345,32.81,3.4789,0.697903
288,1.5,3.5934,0.2658,5.0468,33.13,3.4341,0.690043
301,1.5,3.5627,0.2763,5.0999,32.82,3.4051,0.682122
314,1.5,3.5523,0.2761,5.1956,33.4,3.3774,0.675599
327,1.5,3.5615,0.2772,4.9582,34.32,3.3639,0.669505
340,1.5,3.5396,0.2742,4.962,34.27,3.3361,0.662715
353,1.5,3.54,0.2827,4.8104,32.69,3.2779,0.654903
366,1.5,3.5451,0.2852,4.8933,33.15,3.265,0.650999
379,1.5,3.525,0.2922,4.773,33.79,3.2136,0.64349
392,1.5,3.5411,0.2951,4.6329,33.6,3.1835,0.637814
405,1.5,3.5396,0.2856,4.5685,33.46,3.1589,0.632853
418,1.5,3.5139,0.29,4.8169,33.38,3.133,0.628279
431,1.5,3.5054,0.2969,4.6294,33.25,3.1095,0.620793
444,1.5,3.5401,0.2885,4.6922,33.66,3.0917,0.615008
457,1.5,3.5274,0.2897,4.4965,33.51,3.063,0.609551
470,1.5,3.5056,0.2992,4.5795,33.7,3.0234,0.604139
483,1.5,3.4917,0.311,4.5339,33.17,2.9903,0.597449
496,1.5,3.4925,0.3089,4.5264,34.49,2.954,0.592624
9,2.0,3.7258,0.2138,9.0125,37.67,4.5064,0.90196
22,2.0,3.6838,0.2407,8.598,36.87,4.2581,0.84759
35,2.0,3.6553,0.239,8.0839,36.48,4.0385,0.805922
48,2.0,3.6205,0.2454,7.7747,37.73,3.8699,0.773189
61,2.0,3.5971,0.2667,7.578,38.14,3.7184,0.746687
74,2.0,3.5586,0.2727,7.1053,37.43,3.6021,0.720256
87,2.0,3.5561,0.2787,7.0792,38.13,3.508,0.697629
100,2.0,3.5294,0.2876,6.7964,37.36,3.3665,0.673946
113,2.0,3.5281,0.3017,6.42,36.84,3.2772,0.652263
126,2.0,3.496,0.3017,6.2883,37.76,3.1775,0.633405
139,2.0,3.4826,0.3011,6.1144,37.42,3.0764,0.615989
152,2.0,3.4894,0.3175,6.0071,38.96,3.0023,0.598523
165,2.0,3.4602,0.3072,5.7004,37.65,2.8915,0.579851
178,2.0,3.4389,0.32,5.6297,38.79,2.833,0.565738
191,2.0,3.4331,0.3212,5.5133,38.33,2.7565,0.549063
204,2.0,3.4414,0.3284,5.1473,38.26,2.681,0.535342
217,2.0,3.4246,0.3371,5.3626,38.84,2.5762,0.517185
230,2.0,3.414,0.3423,5.0378,38.4,2.526,0.505502
243,2.0,3.3901,0.3375,4.9468,38.75,2.5263,0.5
256,2.0,3.3957,0.3441,4.8377,37.95,2.4879,0.5
269,2.0,3.398,0.3456,5.1383,37.93,2.4932,0.5
282,2.0,3.4121,0.3375,4.9489,38.19,2.5087,0.5
295,2.0,3.3698,0.3479,5.0795,38.83,2.5201,0.5
308,2.0,3.3962,0.339,5.127,38.72,2.513,0.5
321,2.0,3.4169,0.3387,5.0035,37.79,2.4891,0.5
334,2.0,3.3882,0.3422,5.1111,38.38,2.5076,0.5
347,2.0,3.3882,0.3478,5.0889,38.05,2.5173,0.5
360,2.0,3.396,0.3392,5.0656,39.18,2.5181,0.5
373,2.0,3.3991,0.3409,4.8686,38.61,2.5004,0.5
386,2.0,3.3915,0.3335,4.9846,38.2,2.4913,0.5
399,2.0,3.3862,0.3421,5.0525,38.64,2.4761,0.5
412,2.0,3.3976,0.3406,5.1287,38.89,2.4988,0.5
425,2.0,3.4022,0.3326,5.1452,39.54,2.4905,0.5
438,2.0,3.4218,0.3309,4.9261,38.45,2.4937,0.5
451,2.0,3.3834,0.3477,5.0514,39.31,2.5075,0.5
464,2.0,3.3992,0.3369,4.8164,38.62,2.4956,0.5
477,2.0,3.3961,0.3401,5.0421,39.61,2.4898,0.5
490,2.0,3.4079,0.3371,4.9359,39.28,2.5166,0.5
3,3.0,3.6267,0.2537,12.7461,50.73,4.2208,0.845614
16,3.0,3.4664,0.3148,9.7493,49.73,3.23,0.645543
29,3.0,3.3928,0.3553,7.6254,50.5,2.6042,0.52193
42,3.0,3.3545,0.3587,7.5926,50.21,2.487,0.5
55,3.0,3.338,0.3478,7.4634,50.75,2.4993,0.5
68,3.0,3.3273,0.3605,7.5861,51.04,2.4917,0.5
81,3.0,3.3408,0.3653,7.3938,50.71,2.4986,0.5
94,3.0,3.3491,0.3588,7.4583,50.12,2.4992,0.5
107,3.0,3.3555,0.3582,7.355,51.36,2.498,0.5
120,3.0,3.3489,0.3528,7.6938,51.05,2.4906,0.5
133,3.0,3.375,0.3601,7.4037,50.91,2.4937,0.5
146,3.0,3.3523,0.3604,7.3727,51.22,2.4868,0.5
159,3.0,3.3565,0.3524,7.7118,51.36,2.4878,0.5
172,3.0,3.3441,0.3617,7.551,51.3,2.4943,0.5
185,3.0,3.3315,0.3641,7.4453,50.33,2.4901,0.5
198,3.0,3.3457,0.3722,7.4161,51.56,2.5118,0.5
211,3.0,3.3468,0.3608,7.6157,51.51,2.5113,0.5
224,3.0,3.3295,0.3564,7.444,51.39,2.4982,0.5
237,3.0,3.3516,0.3616,7.4088,51.18,2.5026,0.5
250,3.0,3.3357,0.3664,7.5121,51.92,2.498,0.5
263,3.0,3.351,0.3593,7.6672,51.39,2.505,0.5
276,3.0,3.3634,0.3588,7.5473,52.82,2.4968,0.5
289,3.0,3.3527,0.3597,7.6511,52.21,2.4869,0.5
302,3.0,3.3659,0.3648,7.6944,51.64,2.5006,0.5
315,3.0,3.3585,0.3567,7.4418,51.5,2.4954,0.5
328,3.0,3.3518,0.3591,7.5996,52.29,2.5074,0.5
341,3.0,3.3629,0.3561,7.5125,52.04,2.4922,0.5
354,3.0,3.3232,0.3585,7.5901,51.98,2.4939,0.5
367,3.0,3.351,0.3591,7.3601,52.27,2.5018,0.5
380,3.0,3.3561,0.3546,7.5738,52.82,2.5028,0.5
393,3.0,3.3438,0.3693,7.5043,52.95,2.503,0.5
406,3.0,3.3645,0.3612,7.5192,52.34,2.5213,0.5
419,3.0,3.3421,0.3586,7.4056,52.22,2.4949,0.5
432,3.0,3.3406,0.3608,7.3664,52.64,2.4934,0.5
445,3.0,3.351,0.3709,7.4562,53.36,2.491,0.5
458,3.0,3.3547,0.3605,7.5697,53.35,2.4758,0.5
471,3.0,3.3583,0.3624,7.6357,53.69,2.5045,0.5
484,3.0,3.3445,0.3613,7.4498,52.75,2.4976,0.5
497,3.0,3.339,0.3627,7.3806,53.45,2.4968,0.5
500,3.0,3.3624,0.3666,7.4116,52.83,2.4985,0.5